File: data/EDS-Map/Map_001 particles_WholeSpectrum.emsa
#FORMAT      : EMSA/MAS Spectral Data File
#VERSION     : TC202v2.0
#TITLE       : Map_001 particles_wholespectrum
#DATE        : 22-DEC-2020
#TIEM        : 11:51
#OWNER       : Jennifer
#NPOINTS     : 2048
#NCOLUMNS    : 2
#XUNITS      : Energy (eV)
#YUNITS      : Intensity
#DATATYPE    : XY
#XPERCHAN    : 10
#OFFSET      : 0.00
#SIGNALTYPE  : EDS
#COMMENT     :
#BEAMKV      : 15
#PROBECUR    : 1E-09
#MAGCAM      : 2000
#LIVETIME    : 39.31
#REALTIME    : 66.08
#EDSDET      : SDUTW
##QUALELEM   : C,Mg,Al,Si,S,Ni,Zn,Ag,Sn
#SPECTRUM    : Spectral data start here.
0, 0
20, 0
40, 0
60, 0
80, 7
100, 44
120, 132
140, 293
160, 372
180, 472
200, 588
220, 789
240, 1754
260, 3985
280, 5324
300, 3638
320, 1594
340, 782
360, 718
380, 843
400, 879
420, 653
440, 504
460, 526
480, 779
500, 1224
520, 1711
540, 1594
560, 919
580, 609
600, 551
620, 554
640, 599
660, 685
680, 862
700, 1210
720, 1985
740, 2475
760, 2264
780, 1925
800, 3033
820, 6358
840, 10109
860, 9824
880, 6177
900, 2657
920, 1228
940, 842
960, 990
980, 1462
1000, 2004
1020, 2159
1040, 1759
1060, 1258
1080, 816
1100, 737
1120, 710
1140, 737
1160, 689
1180, 697
1200, 729
1220, 856
1240, 960
1260, 1056
1280, 935
1300, 875
1320, 835
1340, 774
1360, 770
1380, 836
1400, 833
1420, 817
1440, 1025
1460, 1154
1480, 1285
1500, 1227
1520, 1080
1540, 903
1560, 862
1580, 833
1600, 798
1620, 790
1640, 777
1660, 828
1680, 936
1700, 998
1720, 1197
1740, 1232
1760, 1097
1780, 1007
1800, 920
1820, 915
1840, 891
1860, 849
1880, 800
1900, 869
1920, 844
1940, 797
1960, 811
1980, 887
2000, 847
2020, 852
2040, 820
2060, 839
2080, 838
2100, 816
2120, 877
2140, 815
2160, 841
2180, 829
2200, 868
2220, 860
2240, 852
2260, 912
2280, 993
2300, 1065
2320, 1069
2340, 974
2360, 900
2380, 873
2400, 853
2420, 825
2440, 860
2460, 891
2480, 788
2500, 833
2520, 859
2540, 860
2560, 918
2580, 990
2600, 1105
2620, 1297
2640, 1417
2660, 1294
2680, 1080
2700, 957
2720, 939
2740, 890
2760, 893
2780, 956
2800, 1000
2820, 1027
2840, 970
2860, 993
2880, 1233
2900, 2038
2920, 3759
2940, 6869
2960, 10305
2980, 12819
3000, 12695
3020, 9775
3040, 6440
3060, 3915
3080, 2916
3100, 3138
3120, 4324
3140, 5287
3160, 5859
3180, 5204
3200, 4088
3220, 3031
3240, 2562
3260, 1918
3280, 1758
3300, 1717
3320, 1930
3340, 2086
3360, 2525
3380, 3219
3400, 4146
3420, 5202
3440, 5903
3460, 5776
3480, 4692
3500, 3412
3520, 2227
3540, 1489
3560, 1145
3580, 1114
3600, 1395
3620, 1849
3640, 2358
3660, 2760
3680, 2837
3700, 2505
3720, 2206
3740, 1726
3760, 1402
3780, 1157
3800, 1034
3820, 821
3840, 853
3860, 977
3880, 1068
3900, 1197
3920, 1109
3940, 979
3960, 902
3980, 721
4000, 648
4020, 534
4040, 527
4060, 575
4080, 591
4100, 625
4120, 713
4140, 671
4160, 641
4180, 643
4200, 578
4220, 483
4240, 490
4260, 471
4280, 489
4300, 520
4320, 491
4340, 528
4360, 547
4380, 605
4400, 539
4420, 534
4440, 523
4460, 475
4480, 454
4500, 468
4520, 462
4540, 472
4560, 419
4580, 435
4600, 470
4620, 442
4640, 420
4660, 486
4680, 445
4700, 422
4720, 449
4740, 428
4760, 440
4780, 413
4800, 428
4820, 446
4840, 439
4860, 443
4880, 431
4900, 387
4920, 447
4940, 426
4960, 442
4980, 428
5000, 421
5020, 439
5040, 460
5060, 418
5080, 420
5100, 368
5120, 403
5140, 419
5160, 419
5180, 449
5200, 455
5220, 417
5240, 395
5260, 404
5280, 395
5300, 395
5320, 437
5340, 365
5360, 416
5380, 408
5400, 413
5420, 401
5440, 398
5460, 390
5480, 390
5500, 400
5520, 404
5540, 411
5560, 392
5580, 389
5600, 409
5620, 389
5640, 437
5660, 396
5680, 395
5700, 395
5720, 399
5740, 387
5760, 390
5780, 403
5800, 403
5820, 366
5840, 373
5860, 404
5880, 417
5900, 411
5920, 372
5940, 391
5960, 392
5980, 381
6000, 373
6020, 353
6040, 390
6060, 351
6080, 373
6100, 378
6120, 352
6140, 351
6160, 366
6180, 364
6200, 351
6220, 363
6240, 355
6260, 338
6280, 337
6300, 354
6320, 399
6340, 359
6360, 351
6380, 351
6400, 361
6420, 370
6440, 364
6460, 345
6480, 342
6500, 342
6520, 345
6540, 338
6560, 338
6580, 333
6600, 334
6620, 340
6640, 313
6660, 332
6680, 327
6700, 320
6720, 332
6740, 323
6760, 349
6780, 341
6800, 296
6820, 345
6840, 325
6860, 314
6880, 317
6900, 307
6920, 320
6940, 329
6960, 334
6980, 294
7000, 307
7020, 326
7040, 303
7060, 277
7080, 317
7100, 321
7120, 285
7140, 310
7160, 299
7180, 309
7200, 348
7220, 291
7240, 311
7260, 312
7280, 316
7300, 381
7320, 460
7340, 641
7360, 968
7380, 1373
7400, 2039
7420, 2836
7440, 3396
7460, 3804
7480, 3894
7500, 3424
7520, 2765
7540, 2113
7560, 1442
7580, 959
7600, 607
7620, 462
7640, 341
7660, 321
7680, 298
7700, 292
7720, 303
7740, 288
7760, 266
7780, 281
7800, 259
7820, 279
7840, 258
7860, 260
7880, 245
7900, 272
7920, 272
7940, 261
7960, 285
7980, 251
8000, 243
8020, 270
8040, 267
8060, 282
8080, 261
8100, 275
8120, 297
8140, 363
8160, 374
8180, 470
8200, 556
8220, 674
8240, 671
8260, 668
8280, 720
8300, 625
8320, 549
8340, 464
8360, 338
8380, 295
8400, 274
8420, 246
8440, 214
8460, 231
8480, 215
8500, 222
8520, 240
8540, 284
8560, 339
8580, 354
8600, 366
8620, 372
8640, 399
8660, 399
8680, 345
8700, 307
8720, 267
8740, 246
8760, 238
8780, 211
8800, 196
8820, 173
8840, 183
8860, 197
8880, 208
8900, 186
8920, 205
8940, 194
8960, 196
8980, 194
9000, 190
9020, 188
9040, 187
9060, 199
9080, 177
9100, 204
9120, 183
9140, 193
9160, 170
9180, 189
9200, 178
9220, 171
9240, 192
9260, 181
9280, 166
9300, 179
9320, 172
9340, 169
9360, 178
9380, 192
9400, 155
9420, 183
9440, 169
9460, 178
9480, 167
9500, 189
9520, 180
9540, 180
9560, 191
9580, 207
9600, 200
9620, 170
9640, 167
9660, 170
9680, 201
9700, 160
9720, 152
9740, 170
9760, 146
9780, 133
9800, 157
9820, 169
9840, 162
9860, 143
9880, 158
9900, 155
9920, 157
9940, 153
9960, 152
9980, 149
10000, 130
10020, 144
10040, 126
10060, 144
10080, 138
10100, 152
10120, 132
10140, 148
10160, 144
10180, 133
10200, 143
10220, 151
10240, 141
10260, 159
10280, 132
10300, 144
10320, 127
10340, 119
10360, 140
10380, 111
10400, 122
10420, 124
10440, 117
10460, 159
10480, 140
10500, 120
10520, 130
10540, 127
10560, 132
10580, 145
10600, 131
10620, 131
10640, 132
10660, 127
10680, 113
10700, 133
10720, 128
10740, 143
10760, 126
10780, 135
10800, 119
10820, 119
10840, 96
10860, 121
10880, 101
10900, 121
10920, 101
10940, 134
10960, 115
10980, 106
11000, 104
11020, 118
11040, 116
11060, 116
11080, 116
11100, 101
11120, 112
11140, 91
11160, 108
11180, 120
11200, 101
11220, 98
11240, 100
11260, 107
11280, 113
11300, 95
11320, 100
11340, 102
11360, 93
11380, 103
11400, 86
11420, 108
11440, 103
11460, 96
11480, 98
11500, 82
11520, 101
11540, 82
11560, 90
11580, 100
11600, 100
11620, 90
11640, 96
11660, 75
11680, 83
11700, 97
11720, 81
11740, 77
11760, 81
11780, 96
11800, 84
11820, 87
11840, 82
11860, 76
11880, 79
11900, 82
11920, 83
11940, 80
11960, 72
11980, 84
12000, 81
12020, 87
12040, 72
12060, 78
12080, 80
12100, 80
12120, 84
12140, 91
12160, 62
12180, 70
12200, 68
12220, 83
12240, 74
12260, 73
12280, 71
12300, 78
12320, 68
12340, 70
12360, 65
12380, 78
12400, 66
12420, 74
12440, 69
12460, 62
12480, 64
12500, 71
12520, 69
12540, 57
12560, 69
12580, 59
12600, 60
12620, 57
12640, 49
12660, 62
12680, 56
12700, 45
12720, 62
12740, 68
12760, 51
12780, 56
12800, 57
12820, 46
12840, 65
12860, 50
12880, 46
12900, 48
12920, 40
12940, 58
12960, 58
12980, 42
13000, 51
13020, 44
13040, 43
13060, 51
13080, 44
13100, 48
13120, 49
13140, 49
13160, 42
13180, 49
13200, 48
13220, 41
13240, 39
13260, 47
13280, 54
13300, 40
13320, 35
13340, 41
13360, 36
13380, 32
13400, 40
13420, 35
13440, 40
13460, 31
13480, 39
13500, 33
13520, 42
13540, 40
13560, 33
13580, 26
13600, 35
13620, 26
13640, 35
13660, 31
13680, 25
13700, 28
13720, 29
13740, 33
13760, 37
13780, 29
13800, 25
13820, 28
13840, 26
13860, 32
13880, 26
13900, 23
13920, 17
13940, 22
13960, 27
13980, 17
14000, 19
14020, 19
14040, 30
14060, 26
14080, 22
14100, 26
14120, 15
14140, 16
14160, 17
14180, 9
14200, 12
14220, 15
14240, 13
14260, 17
14280, 11
14300, 17
14320, 20
14340, 14
14360, 19
14380, 14
14400, 13
14420, 14
14440, 12
14460, 12
14480, 9
14500, 12
14520, 6
14540, 13
14560, 13
14580, 7
14600, 12
14620, 7
14640, 8
14660, 7
14680, 10
14700, 6
14720, 4
14740, 8
14760, 7
14780, 5
14800, 3
14820, 3
14840, 4
14860, 8
14880, 3
14900, 2
14920, 2
14940, 1
14960, 3
14980, 0
15000, 2
15020, 3
15040, 2
15060, 0
15080, 1
15100, 1
15120, 1
15140, 1
15160, 0
15180, 1
15200, 0
15220, 1
15240, 0
15260, 1
15280, 1
15300, 0
15320, 1
15340, 0
15360, 2
15380, 1
15400, 0
15420, 3
15440, 0
15460, 0
15480, 0
15500, 0
15520, 1
15540, 1
15560, 1
15580, 1
15600, 0
15620, 2
15640, 1
15660, 0
15680, 1
15700, 1
15720, 1
15740, 0
15760, 1
15780, 2
15800, 1
15820, 1
15840, 1
15860, 0
15880, 0
15900, 0
15920, 0
15940, 0
15960, 0
15980, 1
16000, 0
16020, 2
16040, 2
16060, 0
16080, 1
16100, 0
16120, 2
16140, 0
16160, 1
16180, 0
16200, 1
16220, 0
16240, 0
16260, 1
16280, 0
16300, 0
16320, 1
16340, 0
16360, 0
16380, 0
16400, 0
16420, 1
16440, 0
16460, 0
16480, 1
16500, 0
16520, 1
16540, 0
16560, 0
16580, 0
16600, 1
16620, 0
16640, 0
16660, 0
16680, 0
16700, 0
16720, 0
16740, 0
16760, 0
16780, 1
16800, 1
16820, 0
16840, 0
16860, 0
16880, 0
16900, 0
16920, 0
16940, 0
16960, 1
16980, 1
17000, 0
17020, 1
17040, 0
17060, 2
17080, 0
17100, 0
17120, 0
17140, 1
17160, 0
17180, 0
17200, 0
17220, 1
17240, 1
17260, 2
17280, 0
17300, 0
17320, 0
17340, 0
17360, 0
17380, 0
17400, 0
17420, 0
17440, 1
17460, 0
17480, 0
17500, 0
17520, 1
17540, 1
17560, 1
17580, 0
17600, 0
17620, 0
17640, 0
17660, 0
17680, 0
17700, 0
17720, 0
17740, 0
17760, 0
17780, 0
17800, 0
17820, 1
17840, 1
17860, 0
17880, 0
17900, 0
17920, 0
17940, 0
17960, 0
17980, 0
18000, 0
18020, 0
18040, 1
18060, 0
18080, 0
18100, 0
18120, 0
18140, 0
18160, 0
18180, 1
18200, 0
18220, 0
18240, 0
18260, 0
18280, 0
18300, 0
18320, 1
18340, 0
18360, 1
18380, 0
18400, 0
18420, 1
18440, 0
18460, 0
18480, 0
18500, 0
18520, 0
18540, 0
18560, 0
18580, 0
18600, 0
18620, 0
18640, 0
18660, 0
18680, 0
18700, 0
18720, 0
18740, 0
18760, 0
18780, 0
18800, 0
18820, 0
18840, 0
18860, 0
18880, 0
18900, 0
18920, 0
18940, 0
18960, 0
18980, 0
19000, 0
19020, 0
19040, 0
19060, 0
19080, 0
19100, 0
19120, 1
19140, 0
19160, 0
19180, 0
19200, 0
19220, 0
19240, 0
19260, 0
19280, 0
19300, 0
19320, 1
19340, 0
19360, 0
19380, 0
19400, 1
19420, 0
19440, 0
19460, 1
19480, 0
19500, 0
19520, 1
19540, 0
19560, 0
19580, 0
19600, 0
19620, 0
19640, 0
19660, 0
19680, 0
19700, 0
19720, 0
19740, 0
19760, 0
19780, 0
19800, 0
19820, 0
19840, 0
19860, 0
19880, 0
19900, 0
19920, 0
19940, 0
19960, 0
19980, 0
20000, 0
20020, 0
20040, 0
20060, 0
20080, 0
20100, 0
20120, 0
20140, 0
20160, 1
20180, 0
20200, 0
20220, 0
20240, 0
20260, 0
20280, 0
20300, 0
20320, 0
20340, 0
20360, 0
20380, 0
20400, 0
20420, 0
20440, 0
20460, 0
20470, 0
#ENDOFDATA   :